STUDYID,DOMAIN,USUBJID,CMSEQ,CMTRT,CMINDC,CMDOSE,CMDOSU,CMDOSFRQ,CMROUTE,EPOCH,CMSTDTC,CMENDTC,CMSTDY,CMENDY,CMENRTPT,CMENTPT
CDISCPILOT01,CM,CDISC005,1,CENTRUM SILVER,PROPHYLAXIS OR NON-THERAPEUTIC USE,1,TABLET,,ORAL,SCREENING,2012-03,,,,,2013-08-06
CDISCPILOT01,CM,CDISC005,4,HYDROCORTISONE,PROPHYLAXIS OR NON-THERAPEUTIC USE,1,TABLET,,TOPICAL,TREATMENT,2013-05-14,,100,,,2013-08-06
CDISCPILOT01,CM,CDISC017,1,ACETAMINOPHEN,PROPHYLAXIS OR NON-THERAPEUTIC USE,2,TABLET,,ORAL,SCREENING,2008,,,,,2014-03-08
CDISCPILOT01,CM,CDISC017,2,MULTIVITAMIN,PROPHYLAXIS OR NON-THERAPEUTIC USE,1,TABLET,,ORAL,SCREENING,2011-08,,,,,2014-03-08
CDISCPILOT01,CM,CDISC017,3,VITAMIN E,PROPHYLAXIS OR NON-THERAPEUTIC USE,400,mg,,ORAL,SCREENING,2011-08,,,,,2014-03-08
