STUDYID,DOMAIN,USUBJID,MHSEQ,MHTERM,MHEVDTYP,MHSTDTC,MHSTDY,MHENDTC,MHENDY,MHENRTPT,MHENTPT
CDISCPILOT01,MH,CDISC001,1,ALZHEIMER'S DISEASE,SYMPTOM ONSET,2004-05-28,-3108,,,,2021-05-01
CDISCPILOT01,MH,CDISC002,1,ALZHEIMER'S DISEASE,SYMPTOM ONSET,2010-03-19,-972,2010-03-21,-970,,2021-02-15
CDISCPILOT01,MH,CDISC003,1,ALZHEIMER'S DISEASE,SYMPTOM ONSET,2007-02-09,-2393,2007-02-09,-2393,,2015-05-09
CDISCPILOT01,MH,CDISC004,1,ALZHEIMER'S DISEASE,SYMPTOM ONSET,2010-11-05,-1068,,,,2011-06-11
