STUDYID,DOMAIN,USUBJID,MHSEQ,MHTERM,MHEVDTYP,MHSTDTC,MHSTDY,MHENDTC,MHENDY,MHENRTPT,MHENTPT
CDISCPILOT01,MH,CDISC009,1,ALZHEIMER'S DISEASE,SYMPTOM ONSET,2008-09-02,-1511,,,ONGOING,2021-05-04
CDISCPILOT01,MH,CDISC010,1,ALZHEIMER'S DISEASE,SYMPTOM ONSET,2012-09-08,-378,,,ONGOING,2021-05-05
CDISCPILOT01,MH,CDISC011,1,ALZHEIMER'S DISEASE,SYMPTOM ONSET,2002-12-01,-3659,,,ONGOING,2021-05-06
CDISCPILOT01,MH,CDISC012,1,ALZHEIMER'S DISEASE,SYMPTOM ONSET,2009-03-16,-1632,,,,
