[INFO 2026-07-03 13:06:14,091 - console_logger.py:44] - Populating cache, cache path: C:\Users\els_janssens\CORE\Rule_Authoring_CDISC_training\cdisc-open-rules-training\engine\resources\cache
[INFO 2026-07-03 13:06:14,091 - console_logger.py:44] - No rules specified with -r or -er rules flags. Validating with rules in local directory
[INFO 2026-07-03 13:06:14,447 - console_logger.py:44] - Using PANDAS dataset implementation
[INFO 2026-07-03 13:06:14,464 - console_logger.py:44] - Running 1 rules against 2 datasets
[INFO 2026-07-03 13:06:22,970 - console_logger.py:44] - Using PANDAS dataset implementation
[INFO 2026-07-03 13:06:22,970 - console_logger.py:44] - Using PANDAS dataset implementation
[INFO 2026-07-03 13:06:23,008 - console_logger.py:44] - Validating CM. rule={'core_id': 'CG0045', 'author': 'CDISC', 'reference': [[{'Citations': [{'Cited_Guidance': 'The description or date and/or time of a time point that acts as a fixed reference for characterizing the end of an observation. This is the sponsor-defined reference point referred to by --ENRTPT.', 'Document': 'Model v2.0', 'Item': '--ENTPT', 'Section': 'Timing'}], 'Origin': 'SDTM and SDTMIG Conformance Rules', 'Rule_Identifier': {'Id': 'CG0045', 'Version': '1'}, 'Version': '2.0'}], [{'Citations': [{'Cited_Guidance': 'Identifies the end of the observation as being before or after the sponsor-defined reference time point defined by variable --ENTPT.', 'Document': 'Model v1.7', 'Item': 'Table 2.2.5.1: --ENRTPT', 'Section': '2.2.5 Timing Variables for All Classes'}], 'Origin': 'SDTM and SDTMIG Conformance Rules', 'Rule_Identifier': {'Id': 'CG0045', 'Version': '1'}, 'Version': '2.0'}], [{'Citations': [{'Cited_Guidance': '(--ENRTPT) Identifies the end of the observation as being before or after the sponsor-defined reference time point defined by variable --ENTPT.', 'Document': 'Model v1.4', 'Item': 'Specification', 'Section': '2.2.5 Timing Variables for All Classes'}], 'Origin': 'SDTM and SDTMIG Conformance Rules', 'Rule_Identifier': {'Id': 'CG0045', 'Version': '1'}, 'Version': '2.0'}]], 'sensitivity': 'Record', 'executability': 'fully executable', 'description': 'Raise an error when --ENTPT is populated but --ENRTPT is not populated.', 'authorities': [{'Organization': 'CDISC', 'Standards': [{'Name': 'SDTMIG', 'References': [{'Citations': [{'Cited_Guidance': 'The description or date and/or time of a time point that acts as a fixed reference for characterizing the end of an observation. This is the sponsor-defined reference point referred to by --ENRTPT.', 'Document': 'Model v2.0', 'Item': '--ENTPT', 'Section': 'Timing'}], 'Origin': 'SDTM and SDTMIG Conformance Rules', 'Rule_Identifier': {'Id': 'CG0045', 'Version': '1'}, 'Version': '2.0'}], 'Version': '3.4'}, {'Name': 'SDTMIG', 'References': [{'Citations': [{'Cited_Guidance': 'Identifies the end of the observation as being before or after the sponsor-defined reference time point defined by variable --ENTPT.', 'Document': 'Model v1.7', 'Item': 'Table 2.2.5.1: --ENRTPT', 'Section': '2.2.5 Timing Variables for All Classes'}], 'Origin': 'SDTM and SDTMIG Conformance Rules', 'Rule_Identifier': {'Id': 'CG0045', 'Version': '1'}, 'Version': '2.0'}], 'Version': '3.3'}, {'Name': 'SDTMIG', 'References': [{'Citations': [{'Cited_Guidance': '(--ENRTPT) Identifies the end of the observation as being before or after the sponsor-defined reference time point defined by variable --ENTPT.', 'Document': 'Model v1.4', 'Item': 'Specification', 'Section': '2.2.5 Timing Variables for All Classes'}], 'Origin': 'SDTM and SDTMIG Conformance Rules', 'Rule_Identifier': {'Id': 'CG0045', 'Version': '1'}, 'Version': '2.0'}], 'Version': '3.2'}]}], 'standards': [{'Name': 'SDTMIG', 'Version': '3.4', 'Substandard': None}, {'Name': 'SDTMIG', 'Version': '3.3', 'Substandard': None}, {'Name': 'SDTMIG', 'Version': '3.2', 'Substandard': None}], 'classes': {'Include': ['ALL']}, 'domains': {'Include': ['ALL']}, 'entities': None, 'rule_type': 'Record Data', 'conditions': <cdisc_rules_engine.models.rule_conditions.condition_composite.ConditionComposite object at 0x00000203E6316240>, 'actions': [{'name': 'generate_dataset_error_objects', 'params': {'message': '--ENRTPT is not populated when --ENTPT is populated.'}}], 'use_case': None, 'data_structures': None, 'status': 'Draft', 'output_variables': ['--ENTPT', '--ENRTPT']}. dataset_path=C:\Users\els_janssens\CORE\Rule_Authoring_CDISC_training\cdisc-open-rules-training\Unpublished\NEW-RULE\positive\01\data\cm.csv. datasets=[SDTMDatasetMetadata(name='CM', label='Concomitant/Prior Medications', filename='cm.csv', file_size=869, record_count=6, modification_date='2026-07-03T13:04:09.497497', full_path='C:\\Users\\els_janssens\\CORE\\Rule_Authoring_CDISC_training\\cdisc-open-rules-training\\Unpublished\\NEW-RULE\\positive\\01\\data\\cm.csv', first_record={'STUDYID': 'CDISCPILOT01', 'DOMAIN': 'CM', 'USUBJID': 'CDISC004', 'CMSEQ': '1', 'CMTRT': 'VITAMIN C', 'CMINDC': 'PROPHYLAXIS OR NON-THERAPEUTIC USE', 'CMDOSE': '500', 'CMDOSU': 'mg', 'CMDOSFRQ': '', 'CMROUTE': 'ORAL', 'EPOCH': 'SCREENING', 'CMSTDTC': '1983', 'CMENDTC': '', 'CMSTDY': '', 'CMENDY': '', 'CMENRTPT': 'ONGOING', 'CMENTPT': '2014-03-18'}, original_path=None), SDTMDatasetMetadata(name='MH', label=' Medical History', filename='mh.csv', file_size=475, record_count=4, modification_date='2026-05-11T12:41:04.574394', full_path='C:\\Users\\els_janssens\\CORE\\Rule_Authoring_CDISC_training\\cdisc-open-rules-training\\Unpublished\\NEW-RULE\\positive\\01\\data\\mh.csv', first_record={'STUDYID': 'CDISCPILOT01', 'DOMAIN': 'MH', 'USUBJID': 'CDISC009', 'MHSEQ': '1', 'MHTERM': "ALZHEIMER'S DISEASE", 'MHEVDTYP': 'SYMPTOM ONSET', 'MHSTDTC': '2008-09-02', 'MHSTDY': '-1511', 'MHENDTC': '', 'MHENDY': '', 'MHENRTPT': 'ONGOING', 'MHENTPT': '2021-05-04'}, original_path=None)].
[INFO 2026-07-03 13:06:23,008 - console_logger.py:44] - is_suitable_for_validation. rule id=CG0045, dataset=CM, result=True
[INFO 2026-07-03 13:06:23,014 - console_logger.py:44] - Downloading dataset from storage. dataset_name=CM,  wrapped function=get_dataset
[INFO 2026-07-03 13:06:23,032 - console_logger.py:44] - Downloaded dataset. dataset=<cdisc_rules_engine.models.dataset.pandas_dataset.PandasDataset object at 0x00000203E64A82C0>
[INFO 2026-07-03 13:06:23,040 - console_logger.py:44] - Using dataset build by: <class 'cdisc_rules_engine.dataset_builders.contents_dataset_builder.ContentsDatasetBuilder'>
[INFO 2026-07-03 13:06:23,041 - console_logger.py:44] - Starting check operator: non_empty
[INFO 2026-07-03 13:06:23,041 - console_logger.py:44] - Starting check operator: empty
[INFO 2026-07-03 13:06:23,043 - console_logger.py:44] - Completed check operator: empty
[INFO 2026-07-03 13:06:23,043 - console_logger.py:44] - Completed check operator: non_empty
[INFO 2026-07-03 13:06:23,044 - console_logger.py:44] - Starting check operator: empty
[INFO 2026-07-03 13:06:23,045 - console_logger.py:44] - Completed check operator: empty
[INFO 2026-07-03 13:06:23,046 - console_logger.py:44] - Validated dataset CM. Result = []
[INFO 2026-07-03 13:06:23,047 - console_logger.py:44] - Validating MH. rule={'core_id': 'CG0045', 'author': 'CDISC', 'reference': [[{'Citations': [{'Cited_Guidance': 'The description or date and/or time of a time point that acts as a fixed reference for characterizing the end of an observation. This is the sponsor-defined reference point referred to by --ENRTPT.', 'Document': 'Model v2.0', 'Item': '--ENTPT', 'Section': 'Timing'}], 'Origin': 'SDTM and SDTMIG Conformance Rules', 'Rule_Identifier': {'Id': 'CG0045', 'Version': '1'}, 'Version': '2.0'}], [{'Citations': [{'Cited_Guidance': 'Identifies the end of the observation as being before or after the sponsor-defined reference time point defined by variable --ENTPT.', 'Document': 'Model v1.7', 'Item': 'Table 2.2.5.1: --ENRTPT', 'Section': '2.2.5 Timing Variables for All Classes'}], 'Origin': 'SDTM and SDTMIG Conformance Rules', 'Rule_Identifier': {'Id': 'CG0045', 'Version': '1'}, 'Version': '2.0'}], [{'Citations': [{'Cited_Guidance': '(--ENRTPT) Identifies the end of the observation as being before or after the sponsor-defined reference time point defined by variable --ENTPT.', 'Document': 'Model v1.4', 'Item': 'Specification', 'Section': '2.2.5 Timing Variables for All Classes'}], 'Origin': 'SDTM and SDTMIG Conformance Rules', 'Rule_Identifier': {'Id': 'CG0045', 'Version': '1'}, 'Version': '2.0'}]], 'sensitivity': 'Record', 'executability': 'fully executable', 'description': 'Raise an error when --ENTPT is populated but --ENRTPT is not populated.', 'authorities': [{'Organization': 'CDISC', 'Standards': [{'Name': 'SDTMIG', 'References': [{'Citations': [{'Cited_Guidance': 'The description or date and/or time of a time point that acts as a fixed reference for characterizing the end of an observation. This is the sponsor-defined reference point referred to by --ENRTPT.', 'Document': 'Model v2.0', 'Item': '--ENTPT', 'Section': 'Timing'}], 'Origin': 'SDTM and SDTMIG Conformance Rules', 'Rule_Identifier': {'Id': 'CG0045', 'Version': '1'}, 'Version': '2.0'}], 'Version': '3.4'}, {'Name': 'SDTMIG', 'References': [{'Citations': [{'Cited_Guidance': 'Identifies the end of the observation as being before or after the sponsor-defined reference time point defined by variable --ENTPT.', 'Document': 'Model v1.7', 'Item': 'Table 2.2.5.1: --ENRTPT', 'Section': '2.2.5 Timing Variables for All Classes'}], 'Origin': 'SDTM and SDTMIG Conformance Rules', 'Rule_Identifier': {'Id': 'CG0045', 'Version': '1'}, 'Version': '2.0'}], 'Version': '3.3'}, {'Name': 'SDTMIG', 'References': [{'Citations': [{'Cited_Guidance': '(--ENRTPT) Identifies the end of the observation as being before or after the sponsor-defined reference time point defined by variable --ENTPT.', 'Document': 'Model v1.4', 'Item': 'Specification', 'Section': '2.2.5 Timing Variables for All Classes'}], 'Origin': 'SDTM and SDTMIG Conformance Rules', 'Rule_Identifier': {'Id': 'CG0045', 'Version': '1'}, 'Version': '2.0'}], 'Version': '3.2'}]}], 'standards': [{'Name': 'SDTMIG', 'Version': '3.4', 'Substandard': None}, {'Name': 'SDTMIG', 'Version': '3.3', 'Substandard': None}, {'Name': 'SDTMIG', 'Version': '3.2', 'Substandard': None}], 'classes': {'Include': ['ALL']}, 'domains': {'Include': ['ALL']}, 'entities': None, 'rule_type': 'Record Data', 'conditions': <cdisc_rules_engine.models.rule_conditions.condition_composite.ConditionComposite object at 0x00000203E6316240>, 'actions': [{'name': 'generate_dataset_error_objects', 'params': {'message': '--ENRTPT is not populated when --ENTPT is populated.'}}], 'use_case': None, 'data_structures': None, 'status': 'Draft', 'output_variables': ['--ENTPT', '--ENRTPT']}. dataset_path=C:\Users\els_janssens\CORE\Rule_Authoring_CDISC_training\cdisc-open-rules-training\Unpublished\NEW-RULE\positive\01\data\mh.csv. datasets=[SDTMDatasetMetadata(name='CM', label='Concomitant/Prior Medications', filename='cm.csv', file_size=869, record_count=6, modification_date='2026-07-03T13:04:09.497497', full_path='C:\\Users\\els_janssens\\CORE\\Rule_Authoring_CDISC_training\\cdisc-open-rules-training\\Unpublished\\NEW-RULE\\positive\\01\\data\\cm.csv', first_record={'STUDYID': 'CDISCPILOT01', 'DOMAIN': 'CM', 'USUBJID': 'CDISC004', 'CMSEQ': '1', 'CMTRT': 'VITAMIN C', 'CMINDC': 'PROPHYLAXIS OR NON-THERAPEUTIC USE', 'CMDOSE': '500', 'CMDOSU': 'mg', 'CMDOSFRQ': '', 'CMROUTE': 'ORAL', 'EPOCH': 'SCREENING', 'CMSTDTC': '1983', 'CMENDTC': '', 'CMSTDY': '', 'CMENDY': '', 'CMENRTPT': 'ONGOING', 'CMENTPT': '2014-03-18'}, original_path=None), SDTMDatasetMetadata(name='MH', label=' Medical History', filename='mh.csv', file_size=475, record_count=4, modification_date='2026-05-11T12:41:04.574394', full_path='C:\\Users\\els_janssens\\CORE\\Rule_Authoring_CDISC_training\\cdisc-open-rules-training\\Unpublished\\NEW-RULE\\positive\\01\\data\\mh.csv', first_record={'STUDYID': 'CDISCPILOT01', 'DOMAIN': 'MH', 'USUBJID': 'CDISC009', 'MHSEQ': '1', 'MHTERM': "ALZHEIMER'S DISEASE", 'MHEVDTYP': 'SYMPTOM ONSET', 'MHSTDTC': '2008-09-02', 'MHSTDY': '-1511', 'MHENDTC': '', 'MHENDY': '', 'MHENRTPT': 'ONGOING', 'MHENTPT': '2021-05-04'}, original_path=None)].
[INFO 2026-07-03 13:06:23,047 - console_logger.py:44] - is_suitable_for_validation. rule id=CG0045, dataset=MH, result=True
[INFO 2026-07-03 13:06:23,047 - console_logger.py:44] - Downloading dataset from storage. dataset_name=MH,  wrapped function=get_dataset
[INFO 2026-07-03 13:06:23,059 - console_logger.py:44] - Downloaded dataset. dataset=<cdisc_rules_engine.models.dataset.pandas_dataset.PandasDataset object at 0x00000203E61A1CD0>
[INFO 2026-07-03 13:06:23,067 - console_logger.py:44] - Using dataset build by: <class 'cdisc_rules_engine.dataset_builders.contents_dataset_builder.ContentsDatasetBuilder'>
[INFO 2026-07-03 13:06:23,068 - console_logger.py:44] - Starting check operator: non_empty
[INFO 2026-07-03 13:06:23,068 - console_logger.py:44] - Starting check operator: empty
[INFO 2026-07-03 13:06:23,071 - console_logger.py:44] - Completed check operator: empty
[INFO 2026-07-03 13:06:23,071 - console_logger.py:44] - Completed check operator: non_empty
[INFO 2026-07-03 13:06:23,071 - console_logger.py:44] - Starting check operator: empty
[INFO 2026-07-03 13:06:23,073 - console_logger.py:44] - Completed check operator: empty
[INFO 2026-07-03 13:06:23,074 - console_logger.py:44] - Validated dataset MH. Result = []
[INFO 2026-07-03 13:06:23,163 - console_logger.py:44] - Done Rule execution, creating reports
Output: C:\Users\els_janssens\CORE\Rule_Authoring_CDISC_training\cdisc-open-rules-training\Unpublished\NEW-RULE\positive\01\results\results.json